#
# Sample name: Sample title.                                                   
# Sample id:   
# Sample type: 
# User name:   
# Sample description: 
#
# Start time:    2024-05-24, 08:53:50
# Real time (s): 1245.480
# Live time (s): 1200.000
#
# Total counts:  17444507
#
# Left marker:  511 (433.371 keV)
# Right marker: 513 (435.065 keV)
# Counts:  15538
#
# Energy calibration coefficients ( E = sum(Ai * n**i) )
#     A0: 0.669355
#     A1: 0.846774
#     A2: 0.000000
#     A3: 0.000000
# Energy unit: keV
#
# Channel data
# n	energy(keV)	counts	rate(1/s)
#-----------------------------------------------------------------------
1	1.516	0	0
2	2.363	3	0.0025
3	3.210	37	0.0308333
4	4.056	154	0.128333
5	4.903	1035	0.8625
6	5.750	4405	3.67083
7	6.597	11952	9.96
8	7.444	20388	16.99
9	8.290	27970	23.3083
10	9.137	33205	27.6708
11	9.984	34145	28.4542
12	10.831	33697	28.0808
13	11.677	33294	27.745
14	12.524	33322	27.7683
15	13.371	33126	27.605
16	14.218	33518	27.9317
17	15.065	33198	27.665
18	15.911	33562	27.9683
19	16.758	33096	27.58
20	17.605	32983	27.4858
21	18.452	33426	27.855
22	19.298	33546	27.955
23	20.145	33986	28.3217
24	20.992	33759	28.1325
25	21.839	33930	28.275
26	22.685	34216	28.5133
27	23.532	34120	28.4333
28	24.379	34430	28.6917
29	25.226	34390	28.6583
30	26.073	34411	28.6758
31	26.919	34641	28.8675
32	27.766	35147	29.2892
33	28.613	35263	29.3858
34	29.460	34715	28.9292
35	30.306	34685	28.9042
36	31.153	34911	29.0925
37	32.000	34925	29.1042
38	32.847	35053	29.2108
39	33.694	34850	29.0417
40	34.540	34758	28.965
41	35.387	34955	29.1292
42	36.234	34917	29.0975
43	37.081	34896	29.08
44	37.927	34811	29.0092
45	38.774	35112	29.26
46	39.621	34889	29.0742
47	40.468	34992	29.16
48	41.315	35056	29.2133
49	42.161	35193	29.3275
50	43.008	35056	29.2133
51	43.855	35127	29.2725
52	44.702	35113	29.2608
53	45.548	35850	29.875
54	46.395	35462	29.5517
55	47.242	35796	29.83
56	48.089	35880	29.9
57	48.935	35807	29.8392
58	49.782	36037	30.0308
59	50.629	36187	30.1558
60	51.476	36560	30.4667
61	52.323	36490	30.4083
62	53.169	36824	30.6867
63	54.016	36680	30.5667
64	54.863	36922	30.7683
65	55.710	37292	31.0767
66	56.556	37528	31.2733
67	57.403	37845	31.5375
68	58.250	37462	31.2183
69	59.097	37639	31.3658
70	59.944	38036	31.6967
71	60.790	37971	31.6425
72	61.637	38438	32.0317
73	62.484	38742	32.285
74	63.331	38617	32.1808
75	64.177	39359	32.7992
76	65.024	39426	32.855
77	65.871	39781	33.1508
78	66.718	39844	33.2033
79	67.565	39892	33.2433
80	68.411	40331	33.6092
81	69.258	40354	33.6283
82	70.105	40774	33.9783
83	70.952	40856	34.0467
84	71.798	41224	34.3533
85	72.645	41523	34.6025
86	73.492	41591	34.6592
87	74.339	42278	35.2317
88	75.185	42168	35.14
89	76.032	42777	35.6475
90	76.879	42893	35.7442
91	77.726	43542	36.285
92	78.573	43950	36.625
93	79.419	44037	36.6975
94	80.266	44542	37.1183
95	81.113	45121	37.6008
96	81.960	45020	37.5167
97	82.806	45572	37.9767
98	83.653	45885	38.2375
99	84.500	45823	38.1858
100	85.347	46697	38.9142
101	86.194	46581	38.8175
102	87.040	46691	38.9092
103	87.887	47399	39.4992
104	88.734	47560	39.6333
105	89.581	47561	39.6342
106	90.427	47362	39.4683
107	91.274	48090	40.075
108	92.121	48052	40.0433
109	92.968	48221	40.1842
110	93.815	48207	40.1725
111	94.661	48617	40.5142
112	95.508	48490	40.4083
113	96.355	48345	40.2875
114	97.202	48399	40.3325
115	98.048	48584	40.4867
116	98.895	48396	40.33
117	99.742	48322	40.2683
118	100.589	48518	40.4317
119	101.435	48425	40.3542
120	102.282	48333	40.2775
121	103.129	48026	40.0217
122	103.976	48112	40.0933
123	104.823	48053	40.0442
124	105.669	48033	40.0275
125	106.516	47430	39.525
126	107.363	47433	39.5275
127	108.210	47167	39.3058
128	109.056	46908	39.09
129	109.903	47281	39.4008
130	110.750	46437	38.6975
131	111.597	46411	38.6758
132	112.444	45962	38.3017
133	113.290	45978	38.315
134	114.137	45794	38.1617
135	114.984	45216	37.68
136	115.831	45030	37.525
137	116.677	44942	37.4517
138	117.524	44530	37.1083
139	118.371	44621	37.1842
140	119.218	44416	37.0133
141	120.065	43602	36.335
142	120.911	43793	36.4942
143	121.758	43167	35.9725
144	122.605	43237	36.0308
145	123.452	42565	35.4708
146	124.298	42569	35.4742
147	125.145	42535	35.4458
148	125.992	42123	35.1025
149	126.839	41996	34.9967
150	127.685	41509	34.5908
151	128.532	41377	34.4808
152	129.379	41125	34.2708
153	130.226	41040	34.2
154	131.073	40569	33.8075
155	131.919	40386	33.655
156	132.766	40355	33.6292
157	133.613	39851	33.2092
158	134.460	39747	33.1225
159	135.306	39862	33.2183
160	136.153	39404	32.8367
161	137.000	39149	32.6242
162	137.847	38803	32.3358
163	138.694	38923	32.4358
164	139.540	38646	32.205
165	140.387	38543	32.1192
166	141.234	38295	31.9125
167	142.081	38122	31.7683
168	142.927	37931	31.6092
169	143.774	37846	31.5383
170	144.621	37178	30.9817
171	145.468	37043	30.8692
172	146.315	37059	30.8825
173	147.161	37103	30.9192
174	148.008	37140	30.95
175	148.855	36481	30.4008
176	149.702	36272	30.2267
177	150.548	36493	30.4108
178	151.395	36297	30.2475
179	152.242	35539	29.6158
180	153.089	35887	29.9058
181	153.935	35613	29.6775
182	154.782	35689	29.7408
183	155.629	35362	29.4683
184	156.476	35106	29.255
185	157.323	35076	29.23
186	158.169	34914	29.095
187	159.016	34997	29.1642
188	159.863	34419	28.6825
189	160.710	34482	28.735
190	161.556	34255	28.5458
191	162.403	34249	28.5408
192	163.250	34071	28.3925
193	164.097	34046	28.3717
194	164.944	33796	28.1633
195	165.790	33749	28.1242
196	166.637	33793	28.1608
197	167.484	33430	27.8583
198	168.331	33117	27.5975
199	169.177	33053	27.5442
200	170.024	32709	27.2575
201	170.871	32691	27.2425
202	171.718	32368	26.9733
203	172.565	32094	26.745
204	173.411	32093	26.7442
205	174.258	31606	26.3383
206	175.105	31447	26.2058
207	175.952	31120	25.9333
208	176.798	31084	25.9033
209	177.645	30814	25.6783
210	178.492	30441	25.3675
211	179.339	30193	25.1608
212	180.185	30134	25.1117
213	181.032	29523	24.6025
214	181.879	29205	24.3375
215	182.726	29219	24.3492
216	183.573	29099	24.2492
217	184.419	28714	23.9283
218	185.266	28565	23.8042
219	186.113	27914	23.2617
220	186.960	27587	22.9892
221	187.806	27266	22.7217
222	188.653	27130	22.6083
223	189.500	26913	22.4275
224	190.347	26785	22.3208
225	191.194	26634	22.195
226	192.040	25805	21.5042
227	192.887	25538	21.2817
228	193.734	25295	21.0792
229	194.581	25331	21.1092
230	195.427	24635	20.5292
231	196.274	24488	20.4067
232	197.121	23930	19.9417
233	197.968	23973	19.9775
234	198.815	23452	19.5433
235	199.661	23085	19.2375
236	200.508	22839	19.0325
237	201.355	22637	18.8642
238	202.202	22224	18.52
239	203.048	22265	18.5542
240	203.895	22014	18.345
241	204.742	21930	18.275
242	205.589	21283	17.7358
243	206.435	21102	17.585
244	207.282	21120	17.6
245	208.129	20820	17.35
246	208.976	20717	17.2642
247	209.823	20263	16.8858
248	210.669	20211	16.8425
249	211.516	20122	16.7683
250	212.363	20087	16.7392
251	213.210	19679	16.3992
252	214.056	19755	16.4625
253	214.903	19788	16.49
254	215.750	19477	16.2308
255	216.597	19495	16.2458
256	217.444	19471	16.2258
257	218.290	19328	16.1067
258	219.137	19519	16.2658
259	219.984	19009	15.8408
260	220.831	19173	15.9775
261	221.677	19141	15.9508
262	222.524	19409	16.1742
263	223.371	18924	15.77
264	224.218	19398	16.165
265	225.065	19526	16.2717
266	225.911	19255	16.0458
267	226.758	19570	16.3083
268	227.605	19464	16.22
269	228.452	19648	16.3733
270	229.298	20084	16.7367
271	230.145	20074	16.7283
272	230.992	20092	16.7433
273	231.839	20504	17.0867
274	232.685	20650	17.2083
275	233.532	20936	17.4467
276	234.379	21224	17.6867
277	235.226	21579	17.9825
278	236.073	21629	18.0242
279	236.919	22114	18.4283
280	237.766	22359	18.6325
281	238.613	22727	18.9392
282	239.460	23268	19.39
283	240.306	23721	19.7675
284	241.153	24055	20.0458
285	242.000	24665	20.5542
286	242.847	25009	20.8408
287	243.694	25547	21.2892
288	244.540	25622	21.3517
289	245.387	26530	22.1083
290	246.234	26896	22.4133
291	247.081	27813	23.1775
292	247.927	28012	23.3433
293	248.774	28927	24.1058
294	249.621	29638	24.6983
295	250.468	30282	25.235
296	251.315	30849	25.7075
297	252.161	31501	26.2508
298	253.008	32303	26.9192
299	253.855	32709	27.2575
300	254.702	33516	27.93
301	255.548	34349	28.6242
302	256.395	34926	29.105
303	257.242	35633	29.6942
304	258.089	36761	30.6342
305	258.935	37398	31.165
306	259.782	37907	31.5892
307	260.629	39050	32.5417
308	261.476	39859	33.2158
309	262.323	40360	33.6333
310	263.169	41476	34.5633
311	264.016	41795	34.8292
312	264.863	42158	35.1317
313	265.710	43041	35.8675
314	266.556	43687	36.4058
315	267.403	44407	37.0058
316	268.250	44815	37.3458
317	269.097	45548	37.9567
318	269.944	46638	38.865
319	270.790	46716	38.93
320	271.637	47313	39.4275
321	272.484	47187	39.3225
322	273.331	47903	39.9192
323	274.177	48492	40.41
324	275.024	48386	40.3217
325	275.871	48618	40.515
326	276.718	49396	41.1633
327	277.565	49244	41.0367
328	278.411	49899	41.5825
329	279.258	49968	41.64
330	280.105	50380	41.9833
331	280.952	50144	41.7867
332	281.798	50156	41.7967
333	282.645	49743	41.4525
334	283.492	49932	41.61
335	284.339	49896	41.58
336	285.185	49553	41.2942
337	286.032	49271	41.0592
338	286.879	48711	40.5925
339	287.726	48469	40.3908
340	288.573	48556	40.4633
341	289.419	47929	39.9408
342	290.266	47951	39.9592
343	291.113	46937	39.1142
344	291.960	46798	38.9983
345	292.806	46609	38.8408
346	293.653	46099	38.4158
347	294.500	45645	38.0375
348	295.347	44876	37.3967
349	296.194	44061	36.7175
350	297.040	43804	36.5033
351	297.887	43431	36.1925
352	298.734	42784	35.6533
353	299.581	41684	34.7367
354	300.427	41360	34.4667
355	301.274	40672	33.8933
356	302.121	40303	33.5858
357	302.968	39709	33.0908
358	303.815	38605	32.1708
359	304.661	38023	31.6858
360	305.508	37687	31.4058
361	306.355	36724	30.6033
362	307.202	36327	30.2725
363	308.048	36081	30.0675
364	308.895	35369	29.4742
365	309.742	34184	28.4867
366	310.589	34061	28.3842
367	311.435	33022	27.5183
368	312.282	32431	27.0258
369	313.129	32059	26.7158
370	313.976	31369	26.1408
371	314.823	30816	25.68
372	315.669	30390	25.325
373	316.516	29643	24.7025
374	317.363	29527	24.6058
375	318.210	28911	24.0925
376	319.056	28136	23.4467
377	319.903	27736	23.1133
378	320.750	27110	22.5917
379	321.597	26714	22.2617
380	322.444	26274	21.895
381	323.290	25531	21.2758
382	324.137	25227	21.0225
383	324.984	24804	20.67
384	325.831	24498	20.415
385	326.677	23856	19.88
386	327.524	23819	19.8492
387	328.371	23182	19.3183
388	329.218	22693	18.9108
389	330.065	22420	18.6833
390	330.911	21873	18.2275
391	331.758	21565	17.9708
392	332.605	21352	17.7933
393	333.452	20734	17.2783
394	334.298	20518	17.0983
395	335.145	20123	16.7692
396	335.992	20044	16.7033
397	336.839	19728	16.44
398	337.685	19239	16.0325
399	338.532	19169	15.9742
400	339.379	18671	15.5592
401	340.226	18184	15.1533
402	341.073	18037	15.0308
403	341.919	17748	14.79
404	342.766	17347	14.4558
405	343.613	17280	14.4
406	344.460	16682	13.9017
407	345.306	16550	13.7917
408	346.153	16476	13.73
409	347.000	16268	13.5567
410	347.847	15917	13.2642
411	348.694	15663	13.0525
412	349.540	15409	12.8408
413	350.387	15229	12.6908
414	351.234	14838	12.365
415	352.081	14505	12.0875
416	352.927	14292	11.91
417	353.774	14351	11.9592
418	354.621	14183	11.8192
419	355.468	13646	11.3717
420	356.315	13487	11.2392
421	357.161	13472	11.2267
422	358.008	13195	10.9958
423	358.855	12857	10.7142
424	359.702	12766	10.6383
425	360.548	12603	10.5025
426	361.395	12583	10.4858
427	362.242	12365	10.3042
428	363.089	11907	9.9225
429	363.935	11937	9.9475
430	364.782	11552	9.62667
431	365.629	11619	9.6825
432	366.476	11417	9.51417
433	367.323	11250	9.375
434	368.169	11379	9.4825
435	369.016	10922	9.10167
436	369.863	10999	9.16583
437	370.710	10937	9.11417
438	371.556	10669	8.89083
439	372.403	10577	8.81417
440	373.250	10355	8.62917
441	374.097	10346	8.62167
442	374.944	10513	8.76083
443	375.790	10340	8.61667
444	376.637	10126	8.43833
445	377.484	9995	8.32917
446	378.331	9865	8.22083
447	379.177	9942	8.285
448	380.024	9629	8.02417
449	380.871	9843	8.2025
450	381.718	9857	8.21417
451	382.565	9468	7.89
452	383.411	9608	8.00667
453	384.258	9508	7.92333
454	385.105	9251	7.70917
455	385.952	9263	7.71917
456	386.798	9105	7.5875
457	387.645	9097	7.58083
458	388.492	9060	7.55
459	389.339	9137	7.61417
460	390.185	9168	7.64
461	391.032	8992	7.49333
462	391.879	9126	7.605
463	392.726	8792	7.32667
464	393.573	8893	7.41083
465	394.419	8919	7.4325
466	395.266	8802	7.335
467	396.113	8668	7.22333
468	396.960	8631	7.1925
469	397.806	8752	7.29333
470	398.653	8639	7.19917
471	399.500	8620	7.18333
472	400.347	8558	7.13167
473	401.194	8464	7.05333
474	402.040	8563	7.13583
475	402.887	8544	7.12
476	403.734	8383	6.98583
477	404.581	8575	7.14583
478	405.427	8384	6.98667
479	406.274	8334	6.945
480	407.121	8373	6.9775
481	407.968	8289	6.9075
482	408.815	8285	6.90417
483	409.661	8371	6.97583
484	410.508	8313	6.9275
485	411.355	8043	6.7025
486	412.202	8229	6.8575
487	413.048	8274	6.895
488	413.895	8313	6.9275
489	414.742	8070	6.725
490	415.589	8200	6.83333
491	416.435	8039	6.69917
492	417.282	7971	6.6425
493	418.129	8006	6.67167
494	418.976	7982	6.65167
495	419.823	8036	6.69667
496	420.669	8101	6.75083
497	421.516	7952	6.62667
498	422.363	7840	6.53333
499	423.210	8021	6.68417
500	424.056	7827	6.5225
501	424.903	7962	6.635
502	425.750	8056	6.71333
503	426.597	7903	6.58583
504	427.444	7830	6.525
505	428.290	7917	6.5975
506	429.137	7875	6.5625
507	429.984	7940	6.61667
508	430.831	7745	6.45417
509	431.677	7793	6.49417
510	432.524	7737	6.4475
511	433.371	7834	6.52833
512	434.218	7735	6.44583
513	435.065	7803	6.5025
514	435.911	7912	6.59333
515	436.758	7825	6.52083
516	437.605	7722	6.435
517	438.452	7634	6.36167
518	439.298	7709	6.42417
519	440.145	7784	6.48667
520	440.992	7627	6.35583
521	441.839	7650	6.375
522	442.685	7696	6.41333
523	443.532	7740	6.45
524	444.379	7647	6.3725
525	445.226	7658	6.38167
526	446.073	7551	6.2925
527	446.919	7632	6.36
528	447.766	7538	6.28167
529	448.613	7583	6.31917
530	449.460	7794	6.495
531	450.306	7767	6.4725
532	451.153	7632	6.36
533	452.000	7615	6.34583
534	452.847	7603	6.33583
535	453.694	7372	6.14333
536	454.540	7429	6.19083
537	455.387	7503	6.2525
538	456.234	7557	6.2975
539	457.081	7504	6.25333
540	457.927	7195	5.99583
541	458.774	7561	6.30083
542	459.621	7463	6.21917
543	460.468	7691	6.40917
544	461.315	7509	6.2575
545	462.161	7542	6.285
546	463.008	7590	6.325
547	463.855	7454	6.21167
548	464.702	7409	6.17417
549	465.548	7532	6.27667
550	466.395	7254	6.045
551	467.242	7354	6.12833
552	468.089	7341	6.1175
553	468.935	7341	6.1175
554	469.782	7251	6.0425
555	470.629	7336	6.11333
556	471.476	7376	6.14667
557	472.323	7374	6.145
558	473.169	7146	5.955
559	474.016	7515	6.2625
560	474.863	7159	5.96583
561	475.710	7349	6.12417
562	476.556	7458	6.215
563	477.403	7339	6.11583
564	478.250	7239	6.0325
565	479.097	7205	6.00417
566	479.944	7211	6.00917
567	480.790	7151	5.95917
568	481.637	7231	6.02583
569	482.484	7355	6.12917
570	483.331	7322	6.10167
571	484.177	7423	6.18583
572	485.024	7142	5.95167
573	485.871	7287	6.0725
574	486.718	7251	6.0425
575	487.565	7196	5.99667
576	488.411	7264	6.05333
577	489.258	7228	6.02333
578	490.105	7093	5.91083
579	490.952	7335	6.1125
580	491.798	7160	5.96667
581	492.645	7288	6.07333
582	493.492	7364	6.13667
583	494.339	7134	5.945
584	495.185	7139	5.94917
585	496.032	7208	6.00667
586	496.879	7211	6.00917
587	497.726	7148	5.95667
588	498.573	6997	5.83083
589	499.419	7122	5.935
590	500.266	7196	5.99667
591	501.113	7302	6.085
592	501.960	7134	5.945
593	502.806	7145	5.95417
594	503.653	7086	5.905
595	504.500	7093	5.91083
596	505.347	7060	5.88333
597	506.194	7106	5.92167
598	507.040	7090	5.90833
599	507.887	7134	5.945
600	508.734	7033	5.86083
601	509.581	7099	5.91583
602	510.427	7145	5.95417
603	511.274	7048	5.87333
604	512.121	6992	5.82667
605	512.968	7125	5.9375
606	513.815	7133	5.94417
607	514.661	7060	5.88333
608	515.508	7177	5.98083
609	516.355	7124	5.93667
610	517.202	7007	5.83917
611	518.048	7060	5.88333
612	518.895	7000	5.83333
613	519.742	7074	5.895
614	520.589	7051	5.87583
615	521.436	6836	5.69667
616	522.282	7066	5.88833
617	523.129	7032	5.86
618	523.976	7056	5.88
619	524.823	7062	5.885
620	525.669	6990	5.825
621	526.516	7027	5.85583
622	527.363	7013	5.84417
623	528.210	6991	5.82583
624	529.056	7048	5.87333
625	529.903	6931	5.77583
626	530.750	6940	5.78333
627	531.597	6850	5.70833
628	532.444	6883	5.73583
629	533.290	7016	5.84667
630	534.137	6952	5.79333
631	534.984	6891	5.7425
632	535.831	6992	5.82667
633	536.677	6909	5.7575
634	537.524	6840	5.7
635	538.371	6989	5.82417
636	539.218	6911	5.75917
637	540.065	6947	5.78917
638	540.911	6965	5.80417
639	541.758	6979	5.81583
640	542.605	6895	5.74583
641	543.452	6714	5.595
642	544.298	6815	5.67917
643	545.145	6907	5.75583
644	545.992	6738	5.615
645	546.839	6752	5.62667
646	547.686	6921	5.7675
647	548.532	6860	5.71667
648	549.379	6784	5.65333
649	550.226	6673	5.56083
650	551.073	6954	5.795
651	551.919	6844	5.70333
652	552.766	6874	5.72833
653	553.613	6835	5.69583
654	554.460	6670	5.55833
655	555.306	6670	5.55833
656	556.153	6852	5.71
657	557.000	6541	5.45083
658	557.847	6526	5.43833
659	558.694	6590	5.49167
660	559.540	6758	5.63167
661	560.387	6532	5.44333
662	561.234	6578	5.48167
663	562.081	6540	5.45
664	562.927	6534	5.445
665	563.774	6572	5.47667
666	564.621	6612	5.51
667	565.468	6486	5.405
668	566.315	6598	5.49833
669	567.161	6447	5.3725
670	568.008	6309	5.2575
671	568.855	6380	5.31667
672	569.702	6366	5.305
673	570.548	6436	5.36333
674	571.395	6217	5.18083
675	572.242	6289	5.24083
676	573.089	6235	5.19583
677	573.936	6322	5.26833
678	574.782	6236	5.19667
679	575.629	6248	5.20667
680	576.476	6286	5.23833
681	577.323	6245	5.20417
682	578.169	6144	5.12
683	579.016	6021	5.0175
684	579.863	6156	5.13
685	580.710	6078	5.065
686	581.556	5976	4.98
687	582.403	6101	5.08417
688	583.250	6120	5.1
689	584.097	6020	5.01667
690	584.944	5949	4.9575
691	585.790	5998	4.99833
692	586.637	6079	5.06583
693	587.484	5753	4.79417
694	588.331	5936	4.94667
695	589.177	5996	4.99667
696	590.024	5880	4.9
697	590.871	5740	4.78333
698	591.718	5830	4.85833
699	592.565	5873	4.89417
700	593.411	5756	4.79667
701	594.258	5733	4.7775
702	595.105	5815	4.84583
703	595.952	5760	4.8
704	596.798	5695	4.74583
705	597.645	5683	4.73583
706	598.492	5424	4.52
707	599.339	5678	4.73167
708	600.186	5614	4.67833
709	601.032	5610	4.675
710	601.879	5648	4.70667
711	602.726	5545	4.62083
712	603.573	5575	4.64583
713	604.419	5505	4.5875
714	605.266	5583	4.6525
715	606.113	5490	4.575
716	606.960	5499	4.5825
717	607.806	5422	4.51833
718	608.653	5450	4.54167
719	609.500	5498	4.58167
720	610.347	5488	4.57333
721	611.194	5499	4.5825
722	612.040	5271	4.3925
723	612.887	5309	4.42417
724	613.734	5433	4.5275
725	614.581	5452	4.54333
726	615.427	5376	4.48
727	616.274	5388	4.49
728	617.121	5351	4.45917
729	617.968	5335	4.44583
730	618.815	5451	4.5425
731	619.661	5374	4.47833
732	620.508	5407	4.50583
733	621.355	5534	4.61167
734	622.202	5239	4.36583
735	623.048	5322	4.435
736	623.895	5397	4.4975
737	624.742	5441	4.53417
738	625.589	5281	4.40083
739	626.436	5343	4.4525
740	627.282	5436	4.53
741	628.129	5324	4.43667
742	628.976	5449	4.54083
743	629.823	5460	4.55
744	630.669	5403	4.5025
745	631.516	5470	4.55833
746	632.363	5349	4.4575
747	633.210	5357	4.46417
748	634.056	5419	4.51583
749	634.903	5422	4.51833
750	635.750	5647	4.70583
751	636.597	5502	4.585
752	637.444	5345	4.45417
753	638.290	5347	4.45583
754	639.137	5434	4.52833
755	639.984	5385	4.4875
756	640.831	5461	4.55083
757	641.677	5426	4.52167
758	642.524	5552	4.62667
759	643.371	5528	4.60667
760	644.218	5450	4.54167
761	645.065	5585	4.65417
762	645.911	5523	4.6025
763	646.758	5358	4.465
764	647.605	5432	4.52667
765	648.452	5523	4.6025
766	649.298	5460	4.55
767	650.145	5545	4.62083
768	650.992	5587	4.65583
769	651.839	5519	4.59917
770	652.686	5619	4.6825
771	653.532	5538	4.615
772	654.379	5584	4.65333
773	655.226	5628	4.69
774	656.073	5492	4.57667
775	656.919	5541	4.6175
776	657.766	5486	4.57167
777	658.613	5523	4.6025
778	659.460	5542	4.61833
779	660.306	5578	4.64833
780	661.153	5576	4.64667
781	662.000	5520	4.6
782	662.847	5725	4.77083
783	663.694	5603	4.66917
784	664.540	5708	4.75667
785	665.387	5482	4.56833
786	666.234	5449	4.54083
787	667.081	5598	4.665
788	667.927	5609	4.67417
789	668.774	5514	4.595
790	669.621	5501	4.58417
791	670.468	5583	4.6525
792	671.315	5398	4.49833
793	672.161	5502	4.585
794	673.008	5495	4.57917
795	673.855	5497	4.58083
796	674.702	5477	4.56417
797	675.548	5407	4.50583
798	676.395	5426	4.52167
799	677.242	5490	4.575
800	678.089	5391	4.4925
801	678.936	5480	4.56667
802	679.782	5295	4.4125
803	680.629	5186	4.32167
804	681.476	5199	4.3325
805	682.323	5326	4.43833
806	683.169	5322	4.435
807	684.016	5334	4.445
808	684.863	5183	4.31917
809	685.710	5307	4.4225
810	686.556	5197	4.33083
811	687.403	5140	4.28333
812	688.250	5015	4.17917
813	689.097	5147	4.28917
814	689.944	5063	4.21917
815	690.790	5038	4.19833
816	691.637	4897	4.08083
817	692.484	4882	4.06833
818	693.331	4942	4.11833
819	694.177	4994	4.16167
820	695.024	4853	4.04417
821	695.871	4690	3.90833
822	696.718	4786	3.98833
823	697.565	4712	3.92667
824	698.411	4832	4.02667
825	699.258	4666	3.88833
826	700.105	4620	3.85
827	700.952	4627	3.85583
828	701.798	4716	3.93
829	702.645	4623	3.8525
830	703.492	4570	3.80833
831	704.339	4587	3.8225
832	705.186	4301	3.58417
833	706.032	4392	3.66
834	706.879	4449	3.7075
835	707.726	4450	3.70833
836	708.573	4234	3.52833
837	709.419	4285	3.57083
838	710.266	4258	3.54833
839	711.113	4209	3.5075
840	711.960	4098	3.415
841	712.806	4072	3.39333
842	713.653	4014	3.345
843	714.500	3950	3.29167
844	715.347	3952	3.29333
845	716.194	3977	3.31417
846	717.040	3790	3.15833
847	717.887	3814	3.17833
848	718.734	3849	3.2075
849	719.581	3722	3.10167
850	720.427	3786	3.155
851	721.274	3686	3.07167
852	722.121	3638	3.03167
853	722.968	3694	3.07833
854	723.815	3699	3.0825
855	724.661	3552	2.96
856	725.508	3591	2.9925
857	726.355	3522	2.935
858	727.202	3522	2.935
859	728.048	3555	2.9625
860	728.895	3453	2.8775
861	729.742	3462	2.885
862	730.589	3333	2.7775
863	731.436	3344	2.78667
864	732.282	3398	2.83167
865	733.129	3252	2.71
866	733.976	3262	2.71833
867	734.823	3313	2.76083
868	735.669	3290	2.74167
869	736.516	3173	2.64417
870	737.363	3209	2.67417
871	738.210	3152	2.62667
872	739.056	3213	2.6775
873	739.903	3063	2.5525
874	740.750	3085	2.57083
875	741.597	3055	2.54583
876	742.444	2955	2.4625
877	743.290	3011	2.50917
878	744.137	2981	2.48417
879	744.984	2923	2.43583
880	745.831	3009	2.5075
881	746.677	2950	2.45833
882	747.524	2873	2.39417
883	748.371	2834	2.36167
884	749.218	2896	2.41333
885	750.065	2817	2.3475
886	750.911	2814	2.345
887	751.758	2814	2.345
888	752.605	2761	2.30083
889	753.452	2742	2.285
890	754.298	2726	2.27167
891	755.145	2783	2.31917
892	755.992	2677	2.23083
893	756.839	2659	2.21583
894	757.686	2553	2.1275
895	758.532	2615	2.17917
896	759.379	2564	2.13667
897	760.226	2492	2.07667
898	761.073	2606	2.17167
899	761.919	2517	2.0975
900	762.766	2477	2.06417
901	763.613	2575	2.14583
902	764.460	2476	2.06333
903	765.306	2421	2.0175
904	766.153	2572	2.14333
905	767.000	2459	2.04917
906	767.847	2330	1.94167
907	768.694	2386	1.98833
908	769.540	2362	1.96833
909	770.387	2388	1.99
910	771.234	2308	1.92333
911	772.081	2422	2.01833
912	772.927	2368	1.97333
913	773.774	2294	1.91167
914	774.621	2261	1.88417
915	775.468	2229	1.8575
916	776.315	2384	1.98667
917	777.161	2255	1.87917
918	778.008	2235	1.8625
919	778.855	2179	1.81583
920	779.702	2185	1.82083
921	780.548	2228	1.85667
922	781.395	2165	1.80417
923	782.242	2181	1.8175
924	783.089	2172	1.81
925	783.936	2131	1.77583
926	784.782	2148	1.79
927	785.629	1994	1.66167
928	786.476	2089	1.74083
929	787.323	2040	1.7
930	788.169	2089	1.74083
931	789.016	2076	1.73
932	789.863	1991	1.65917
933	790.710	2006	1.67167
934	791.556	2055	1.7125
935	792.403	2013	1.6775
936	793.250	1984	1.65333
937	794.097	1978	1.64833
938	794.944	1991	1.65917
939	795.790	1972	1.64333
940	796.637	1957	1.63083
941	797.484	1866	1.555
942	798.331	1889	1.57417
943	799.177	1841	1.53417
944	800.024	1838	1.53167
945	800.871	1921	1.60083
946	801.718	1767	1.4725
947	802.565	1859	1.54917
948	803.411	1882	1.56833
949	804.258	1841	1.53417
950	805.105	1834	1.52833
951	805.952	1780	1.48333
952	806.798	1794	1.495
953	807.645	1769	1.47417
954	808.492	1771	1.47583
955	809.339	1714	1.42833
956	810.186	1707	1.4225
957	811.032	1734	1.445
958	811.879	1685	1.40417
959	812.726	1655	1.37917
960	813.573	1649	1.37417
961	814.419	1648	1.37333
962	815.266	1604	1.33667
963	816.113	1661	1.38417
964	816.960	1666	1.38833
965	817.806	1668	1.39
966	818.653	1556	1.29667
967	819.500	1517	1.26417
968	820.347	1672	1.39333
969	821.194	1588	1.32333
970	822.040	1545	1.2875
971	822.887	1510	1.25833
972	823.734	1525	1.27083
973	824.581	1475	1.22917
974	825.427	1486	1.23833
975	826.274	1483	1.23583
976	827.121	1508	1.25667
977	827.968	1408	1.17333
978	828.815	1452	1.21
979	829.661	1516	1.26333
980	830.508	1476	1.23
981	831.355	1372	1.14333
982	832.202	1377	1.1475
983	833.048	1402	1.16833
984	833.895	1370	1.14167
985	834.742	1350	1.125
986	835.589	1335	1.1125
987	836.436	1412	1.17667
988	837.282	1385	1.15417
989	838.129	1316	1.09667
990	838.976	1445	1.20417
991	839.823	1375	1.14583
992	840.669	1283	1.06917
993	841.516	1350	1.125
994	842.363	1339	1.11583
995	843.210	1237	1.03083
996	844.056	1258	1.04833
997	844.903	1283	1.06917
998	845.750	1164	0.97
999	846.597	1257	1.0475
1000	847.444	1311	1.0925
1001	848.290	1186	0.988333
1002	849.137	1246	1.03833
1003	849.984	1208	1.00667
1004	850.831	1214	1.01167
1005	851.677	1148	0.956667
1006	852.524	1207	1.00583
1007	853.371	1219	1.01583
1008	854.218	1157	0.964167
1009	855.065	1191	0.9925
1010	855.911	1117	0.930833
1011	856.758	1152	0.96
1012	857.605	1127	0.939167
1013	858.452	1189	0.990833
1014	859.298	1085	0.904167
1015	860.145	1030	0.858333
1016	860.992	1083	0.9025
1017	861.839	1131	0.9425
1018	862.686	1137	0.9475
1019	863.532	1111	0.925833
1020	864.379	1095	0.9125
1021	865.226	1164	0.97
1022	866.073	1070	0.891667
1023	866.919	1099	0.915833
1024	867.766	1053	0.8775
